Folder: regression-pipeline/cleaning

Note: cleaning/scm-dataset-mapped.md
| Dataset Column                         | Required Column        | Notes                                      |
| -------------------------------------- | ---------------------- | ------------------------------------------ |
| `Cement(kg/m3)`                        | `cement_opc`           | ✔ Direct                                   |
| `FA (kg/m3)`                           | `scm_flyash`           | ✔ Direct                                   |
| `GGBFS (kg/m3)`                        | `scm_ggbs`             | ✔ Direct                                   |
| (missing)                              | `silica_sand`          | ✖ Not available → fill as 0                |
| `Fine aggregate(kg/m3)`                | `locally_avail_sand`   | ✔ Direct                                   |
| `Water(kg/m3)` + `Cement(kg/m3)`       | `w_b`                  | ➕ compute: `Water / (Cement + FA + GGBFS)` |
| `SP (kg/m3)`                           | `hrwr_b`               | ➕ compute: `SP / (Cement + FA + GGBFS)`    |
| (missing)                              | `perc_of_fibre`        | ✖ Not available → fill as 0                |
| (missing)                              | `aspect_ratio`         | ✖ Not available → fill as 0                |
| `Splitting tensile strength (MPa)`     | `tensile_strength`     | ✔ Direct                                   |
| `Cement+Water+Coarse+Fine+FA+SF+GGBFS` | `density`              | ➕ approximate total mass                   |
| `Elastic modulus (GPa)`                | `youngs_modulus`       | ✔ Direct                                   |
| `Elongation (%)`                       | `elongation`           | ✖ Not available → fill as 0                |
| `Cylinder compressive strength (MPa)`  | `compressive_strength` | ✔ Direct                                   |

File: SCM-concrete-global.csv
Mix ID, Cement(kg/m3), Water(kg/m3),Coarse aggregate(kg/m3),Fine aggregate(kg/m3), FA (kg/m3),SF (kg/m3),GGBFS (kg/m3),SP (kg/m3),Cylinder compressive strength (MPa),Splitting tensile strength (MPa),Flexural strength (MPa),Elastic modulus (GPa),Chloride permeability (Coulomb) 28d,Chloride permeability (Coulomb) 90d,Chloride permeability (Coulomb) 180d,Drying shrinkage (με) 7d,Drying shrinkage (με) 28d,Drying shrinkage (με) 90d,Drying shrinkage (με)120d,Creep (με) 28d,Creep (με) 90d,Creep (με) 150d,Abrasion (mm) 28 d,Reference
R1_F40,300,150,1097,673,200,0,0,4.5,52.7,2.52,-1,-1,-1,-1,-1,-1,-1,-1,-1,-1,-1,-1,-1,https://doi.org/10.1016/j.conbuildmat.2017.05.080
R1_F15S40,225,150,1097,673,75,0,200,5,55.25,2.37,-1,-1,-1,-1,-1,-1,-1,-1,-1,-1,-1,-1,-1,
R2_60% 25FA-75SL,166,168,820,932,62.25,0,186.75,1.69,54.2,-1,-1,38,-1,-1,-1,-1,-1,-1,-1,-1,-1,-1,-1,
R2_80% 75FA-25SL,83,168,820,932,249,0,83,1.69,28,-1,-1,38,-1,-1,-1,-1,-1,-1,-1,-1,-1,-1,-1,
R3_A-50-75-3,130,206.7,849.4,785,156,78,156,6.8,30.21,-1,-1,-1,-1,-1,-1,-1,-1,-1,-1,-1,-1,-1,-1,
R4_PLC1-0.45-20 %FAF,290,163,1048,670,72.5,0,0,0,37.5,-1,-1,-1,-1,-1,-1,-1,-1,-1,-1,-1,-1,-1,-1,https://doi.org/10.1016/j.cement.2022.100026
R4_PLC1-0.45-30 %FAC,253.75,163,1048,670,108.75,0,0,0,43,4.128,-1,-1,-1,-1,-1,-1,-1,-1,-1,-1,-1,-1,-1,
R4_PLC1-0.45-35 %slag,235.62,163,1048,670,0,0,126.88,0,43,-1,-1,-1,-1,-1,-1,-1,-1,-1,-1,-1,-1,-1,-1,
R4_PLC7-0.45-25%FAC-5% SF,253.75,163,1048,670,90.62,18.12,0,0,35,3.53,-1,-1,-1,-1,-1,-1,-1,-1,-1,-1,-1,-1,-1,
R6_4SF,436.5,200,778,880,0,18,0,6.7,53.7,-1,-1,-1,5183,1403,-1,-1,-1,-1,-1,-1,-1,-1,-1,https://doi.org/10.1016/j.conbuildmat.2015.01.053
R6_18FAF,373,200,772,872,81.5,0,0,4.67,41,-1,-1,-1,4901,1171,-1,-1,-1,-1,-1,-1,-1,-1,-1,
R7_50%RCA+40%slag+10%SF,228,182,1100,770,0,46,182,2.58,49.5,4.45,-1,29,-1,-1,-1,-1,-1,-1,-1,-1,-1,-1,-1,
R9_S20F0M0,440,198,797.5,962.5,0,110,0,8.25,45.1,-1,-1,-1,-1,-1,-1,-1,-1,-1,-1,-1,-1,-1,-1,https://doi.org/10.1016/j.cscm.2023.e02395
R11_SF15,468,132,1136,612,0,83,0,8.3,85,-1,-1,-1,-1,-1,-1,-1,-1,-1,-1,-1,-1,-1,-1,
R12_SF15-0.3,425,150,1050,680,0,75,0,19,83.725,-1,-1,-1,-1,-1,-1,-1,-1,-1,-1,-1,-1,-1,-1,
R14_w/cm ratio 0.26_2,494,135.2,1146,667,0,26,0,18.2,79.05,6.38,9.8,-1,-1,-1,-1,-1,-1,-1,-1,-1,-1,-1,-1,https://doi.org/10.1016/j.cemconres.2004.05.024
R14_w/cm ratio 0.3_4,433.5,153,1122.5,653,0,76.5,0,17.85,71.99,6.25,9.95,-1,-1,-1,-1,-1,-1,-1,-1,-1,-1,-1,-1,
R14_w/cm ratio 0.34_6,375,170,1100,640,0,125,0,17.5,66.98,5.85,8.75,-1,-1,-1,-1,-1,-1,-1,-1,-1,-1,-1,-1,
R14_w/cm ratio 0.42_2,456,201.6,1058,616,0,24,0,16.8,42.67,4.4,6.8,-1,-1,-1,-1,-1,-1,-1,-1,-1,-1,-1,-1,
R15_S20,640,252,710,730,0,160,0,33,86.11,-1,-1,55,-1,-1,-1,-1,-1,-1,-1,-1,-1,-1,-1,
R17_2,212.1,184.2,1057.6,779.3,125.6,0,0,5.7,21.81,-1,-1,-1,-1,-1,-1,-1,-1,-1,-1,-1,-1,-1,-1,
R17_9,310,189.9,936.2,712.2,124.8,0,0,0,40.94,-1,-1,-1,-1,-1,-1,-1,-1,-1,-1,-1,-1,-1,-1,
R17_16,220.9,142.5,896,896,124.8,0,0,0,72.11,-1,-1,-1,-1,-1,-1,-1,-1,-1,-1,-1,-1,-1,-1,
R17_23,326.5,193.3,801.1,792.5,124.8,0,0,10.8,35.61,-1,-1,-1,-1,-1,-1,-1,-1,-1,-1,-1,-1,-1,-1,
R17_30,318.9,212.7,860.5,725,124.8,0,0,5.7,36.09,-1,-1,-1,-1,-1,-1,-1,-1,-1,-1,-1,-1,-1,-1,
R18_5,400,160,999,710,100,0,0,9.568,52.28,-1,-1,-1,-1,-1,-1,-1,-1,-1,-1,-1,-1,-1,-1,
R18_12,425,180,999,710,0,75,0,6.0275,55.51,-1,-1,-1,-1,-1,-1,-1,-1,-1,-1,-1,-1,-1,-1,
R19_3,167,185,898,636,195,0,187,7,23.89,-1,-1,-1,-1,-1,-1,-1,-1,-1,-1,-1,-1,-1,-1,
R19_10,237,247,853,695,71,0,92,6,28.63,-1,-1,-1,-1,-1,-1,-1,-1,-1,-1,-1,-1,-1,-1,
R19_17,262,195,895,733,86,0,111,5,33.72,-1,-1,-1,-1,-1,-1,-1,-1,-1,-1,-1,-1,-1,-1,
R19_24,276,180,870,768,90,0,116,9,44.28,-1,-1,-1,-1,-1,-1,-1,-1,-1,-1,-1,-1,-1,-1,
R19_31,149,192,935,623,194,0,153,8,24.58,-1,-1,-1,-1,-1,-1,-1,-1,-1,-1,-1,-1,-1,-1,
R19_38,153,178,867,824,113,0,145,8,26.23,-1,-1,-1,-1,-1,-1,-1,-1,-1,-1,-1,-1,-1,-1,
R19_45,172.4,156.8,1006.3,856.4,172.4,0,13.6,4.1,33.69,-1,-1,-1,-1,-1,-1,-1,-1,-1,-1,-1,-1,-1,-1,
R19_52,334,189,967,633,158,0,17.6,15.3,44.33,-1,-1,-1,-1,-1,-1,-1,-1,-1,-1,-1,-1,-1,-1,
R19_59,446,162,967,712,79,0,24,11.6,51.02,-1,-1,-1,-1,-1,-1,-1,-1,-1,-1,-1,-1,-1,-1,
R19_66,144,178,941,774,106,0,136,7,26.14,-1,-1,-1,-1,-1,-1,-1,-1,-1,-1,-1,-1,-1,-1,
R19_73,152,168,944,695,139,0,178,18,36.35,-1,-1,-1,-1,-1,-1,-1,-1,-1,-1,-1,-1,-1,-1,
R19_80,140,237,869,656,128,0,164,6,35.23,-1,-1,-1,-1,-1,-1,-1,-1,-1,-1,-1,-1,-1,-1,
R19_87,148.5,192.7,892.4,780,108.6,0,139.4,6.1,23.7,-1,-1,-1,-1,-1,-1,-1,-1,-1,-1,-1,-1,-1,-1,
R19_94,132,178.9,866.9,735.6,160.9,0,206.5,5.5,33.31,-1,-1,-1,-1,-1,-1,-1,-1,-1,-1,-1,-1,-1,-1,
R19_101,491,201,822,699,123,0,26,3.9,57.92,-1,-1,-1,-1,-1,-1,-1,-1,-1,-1,-1,-1,-1,-1,
R19_108,143,190.7,967.4,643.5,142.7,0,169.4,8.4,29.73,-1,-1,-1,-1,-1,-1,-1,-1,-1,-1,-1,-1,-1,-1,
R19_115,167.4,175.5,1006.3,746.6,128.6,0,129.9,7.8,41.2,-1,-1,-1,-1,-1,-1,-1,-1,-1,-1,-1,-1,-1,-1,
R19_122,276.4,179.6,870.1,768.3,90.3,0,116,8.9,44.28,-1,-1,-1,-1,-1,-1,-1,-1,-1,-1,-1,-1,-1,-1,
R21_30FA,350,191,578,1040,150,0,0,1.9,36.29,-1,-1,-1,-1,-1,-1,-1,-1,-1,-1,-1,-1,-1,-1,
R21_50GGBFS,250,191,580,1069,0,0,250,1.9,32.3,-1,-1,-1,-1,-1,-1,-1,-1,-1,-1,-1,-1,-1,-1,
R22_FS2,434,235.6,720,780,155,31,0,2.73,55.11,-1,-1,-1,-1,-1,-1,-1,-1,-1,-1,-1,-1,-1,-1,
R24_W/B=0.3_70FA,180,180,595,908,420,0,0,0.72,38.76,-1,-1,-1,1830,-1,-1,-1,-1,-1,-1,-1,-1,-1,-1,
R24_W/B=0.3_50FA10SF,240,180,595,933,300,60,0,2.88,62.56,-1,-1,-1,510,-1,-1,-1,-1,-1,-1,-1,-1,-1,-1,
R24_W/B=0.35_45FA5SF,257,180,621,1023,231,26,0,2.056,58.14,-1,-1,-1,1100,-1,-1,-1,-1,-1,-1,-1,-1,-1,-1,
R24_W/B=0.4_60FA,180,180,640,1053,270,0,0,0.945,30.35,-1,-1,-1,3200,-1,-1,-1,-1,-1,-1,-1,-1,-1,-1,
R24_W/B=0.4_40FA10SF,225,180,640,1072,180,45,0,2.88,51.26,-1,-1,-1,1000,-1,-1,-1,-1,-1,-1,-1,-1,-1,-1,
R25_40% SF,300,175,663,923,200,0,0,7.5,46.75,-1,-1,-1,-1,-1,-1,-1,-1,-1,-1,-1,-1,-1,-1,
R27_M2,440,176,917,714,110,0,0,7.43,59.33,-1,-1,-1,-1,-1,-1,205,360,-1,-1,-1,-1,-1,-1,https://doi.org/10.1016/j.conbuildmat.2010.04.015
R27_M9,495,176,925,720,0,55,0,10.67,72.84,-1,-1,-1,-1,-1,-1,300,480,-1,-1,-1,-1,-1,-1,
R27_M22,220,176,912,710,0,82.5,247.5,10.22,71.82,-1,-1,-1,-1,-1,-1,230,375,-1,-1,-1,-1,-1,-1,
R27_M46,270,198,842,801,180,0,0,2.96,37.99,-1,-1,-1,-1,-1,-1,198,368,-1,-1,-1,-1,-1,-1,
R27_M53,382.5,198,858,816,0,67.5,0,7.76,60.43,-1,-1,-1,-1,-1,-1,225,443,-1,-1,-1,-1,-1,-1,
R27_M60,360,198,860,819,45,0,45,3.2,53.04,-1,-1,-1,-1,-1,-1,-1,-1,-1,-1,-1,-1,-1,-1,
R28_40FA,270,198,842,801,180,0,0,2.9,60.3,-1,-1,-1,-1,1083,-1,197,354,-1,-1,-1,-1,-1,-1,
R28_15SF,383,198,858,816,0,67.5,0,7.8,74.8,-1,-1,-1,-1,375,-1,206,444,-1,-1,-1,-1,-1,-1,
R28_10FA10S,360,198,861,819,45,0,45,3.2,78,-1,-1,-1,-1,1040,-1,208,-1,-1,-1,-1,-1,-1,-1,
R29_H40,360,165,735,837,240,0,0,19.98,49,3.73,-1,32,-1,-1,-1,-1,-1,-1,-1,-1,-1,-1,-1,
R30_Mix-I,340,153.34,1110,680,34,0,0,2.04,51.7,-1,-1,36.372,-1,-1,-1,-1,-1,-1,-1,-1,-1,-1,-1,https://doi.org/10.1061/JCCEE5.CPENG-6029
R30_Mix-IX,440,137.28,1028,630,44,44,0,7.92,74.1,-1,-1,-1,-1,-1,-1,-1,-1,-1,-1,-1,-1,-1,-1,
R32_50S-60,175,210,952,883,0,0,175,0,43.605,-1,-1,-1,703,372,-1,-1,-1,-1,-1,-1,-1,-1,-1,https://doi.org/10.1061/(ASCE)0899-1561(2009)21:9(494)
R33_M2,195,120,1041,854,199,0,0,2.7,44,-1,-1,-1,-1,-1,-1,-1,-1,-1,-1,-1,-1,-1,2.25,
R33_M9,154,117,1016,818,261,0,0,1.9,40,-1,-1,-1,-1,-1,-1,-1,-1,-1,-1,-1,-1,-1,3.45,
R35_M3,200,132,1200,600,200,0,0,5.6,53.97,4.46,6.33,-1,-1,-1,-1,-1,-1,-1,-1,-1,-1,-1,-1,
R36_w-c0.4_F30,280,160,1270,554,120,0,0,0,29.75,-1,4.26,-1,-1,-1,-1,-1,718,-1,-1,-1,-1,-1,-1,
R36_w-c0.34_F50,200,136,1270,596,200,0,0,2,31.45,-1,4.48,-1,-1,-1,-1,-1,450,-1,-1,-1,-1,-1,-1,
R37_G2,423,143.82,1056,704,47,0,0,0,46.32,-1,-1,-1,-1,-1,-1,240,350,449,467,-1,-1,-1,-1,https://doi.org/10.1016/j.conbuildmat.2021.125045
R37_G13,282,95.88,1056,704,94,0,94,0,47.68,-1,-1,-1,-1,-1,-1,165,240,307,320,-1,-1,-1,-1,
R38_7,362,140,1058,872,0,7.18,0,7.96,58.4,-1,-1,-1,-1,-1,-1,-1,-1,-1,-1,-1,-1,-1,-1,
R38_14,366,140,1042,860,0,5.92,0,8.05,59.9,-1,-1,-1,-1,-1,-1,-1,-1,-1,-1,-1,-1,-1,-1,
R38_21,394,140,1012,834,0,7.02,0,8.67,62.54,-1,-1,-1,-1,-1,-1,-1,-1,-1,-1,-1,-1,-1,-1,
R39_TBSCC4,411,204,785,908,77,0,0,10.736,34.51,3.8,6.04,27.16,679,-1,-1,-1,-1,-1,-1,-1,-1,-1,-1,
R39_TBSCC11,347,204,785,908,129,0,0,10.472,34.09,3.82,5.2,27,450,-1,-1,-1,-1,-1,-1,-1,-1,-1,-1,
R40_250CFGSN0,250,125,1088.2,725.4,100,50,100,11,56.69,5.47,8.47,35.69,1407,-1,-1,-1,-1,-1,-1,-1,-1,-1,-1,
R41_SCC-75,635,247,565,847,0,71,0,2.54,56.1,-1,9.4,-1,-1,-1,-1,450,579,613,-1,-1,-1,-1,-1,
R42_w/c ratio =0.34_2,475,170,1100,640,25,0,0,14.25,42.24,-1,6.75,-1,-1,-1,-1,-1,-1,-1,-1,-1,-1,-1,-1,
R42_w/c ratio =0.38_4,416.5,186.2,1078,628,73.5,0,0,12.495,32.13,-1,5.75,-1,-1,-1,-1,-1,-1,-1,-1,-1,-1,-1,-1,
R42_w/c ratio =0.42_5,384,201.6,1058,616,96,0,0,11.52,28.05,-1,4.5,-1,-1,-1,-1,-1,-1,-1,-1,-1,-1,-1,-1,
R43_GGBFS30,322,161,1085.2,693.81,0,0,138,1.104,52.95,4.58,-1,28.25,-1,-1,-1,175,325,-1,-1,-1,-1,-1,-1,
R45_M11,320,180,1107,665,0,0,80,0,30.77,-1,-1,-1,-1,-1,-1,70,111,170,195,245,300,260,-1,https://doi.org/10.1016/j.cemconcomp.2016.02.004
R45_M32,192,176,1145,688,0,0,128,0,18.69,-1,-1,-1,-1,-1,-1,95,154,245,223,490,650,600,-1,
R48_20S1.3A,400,210,700.4,891.5,0,100,0,1.3,57.04,-1,7.2,-1,-1,-1,-1,-1,-1,-1,-1,-1,-1,-1,-1,
R49_M4,302.5,192.5,830.3,792.8,0,0,247.5,7.43,52.61,-1,-1,-1,-1,-1,-1,-1,-1,-1,-1,-1,-1,-1,-1,
R51_35%FA,325,190,735,910,175,0,0,6.75,36.55,-1,-1,-1,-1,-1,-1,-1,-1,-1,-1,-1,-1,-1,-1,
R52_23,297.5,104.125,1035,740,0,52.5,0,6.3,53.77,-1,-1,-1,-1,-1,-1,-1,-1,-1,-1,-1,-1,-1,-1,
R52_30,245,85.75,1035,740,52.5,0,52.5,6.3,33.07,-1,-1,-1,-1,-1,-1,-1,-1,-1,-1,-1,-1,-1,-1,
R53_FA40,291,145,1153.57,646,194,0,0,5.0925,49.3,-1,-1,-1,-1,-1,-1,-1,-1,-1,-1,-1,-1,-1,-1,
R54_MW-1,350,140,1109,720,100,0,0,10.8,46.32,-1,-1,53.5,-1,-1,-1,-1,-1,-1,-1,-1,-1,-1,-1,
R54_RA-4,350,180,943,678,100,0,0,6.8,32.72,-1,-1,15,-1,-1,-1,-1,-1,-1,-1,-1,-1,-1,-1,
R56_CFA2SF,200,90,1014,739,192,8,0,0.6,36.97,-1,-1,-1,891,-1,-1,-1,-1,-1,-1,-1,-1,-1,-1,
R57_SP-6,237.75,190,1396,698,31.7,47.55,0,0,16.97,-1,-1,-1,-1,-1,-1,-1,-1,-1,-1,-1,-1,-1,-1,
R58-A1,474.3,158,1029,686,52.7,0,0,10.54,65.87,-1,-1,-1,-1,-1,-1,-1,-1,-1,-1,-1,-1,-1,-1,https://doi.org/10.1051/e3sconf/202123703038
R58-C8,421.6,158,1029,686,52.7,52.7,0,10.54,64.09,-1,-1,-1,-1,-1,-1,-1,-1,-1,-1,-1,-1,-1,-1,
R59_G50,200,160,1104,736,0,0,200,2,21.505,1.6,4.25,-1,-1,-1,-1,-1,-1,-1,-1,-1,-1,-1,-1,
R60_80BFS,80,163,1184,684,0,0,320,2.85,34.8,-1,-1,-1,-1,-1,-1,-1,405,540,558,-1,-1,-1,-1,https://doi-org.wwwproxy1.library.unsw.edu.au/10.1002/suco.202000251
R60_70BFS-FA,120,163,1184,684,84,0,196,1.15,42.5,-1,-1,-1,-1,-1,-1,-1,390,445,490,-1,-1,-1,-1,
R61_MIX1,304.56,160,1270,605,84.6,33.84,126.9,3.6,44.914,4.24,5.1,-1,-1,-1,-1,-1,-1,-1,-1,-1,-1,-1,-1,https://iopscience.iop.org/article/10.1088/1757-899X/1185/1/012016
R61_MIX2,304.56,160,1270,605,84.6,33.84,169.2,3.6,49.946,4.27,5.3,-1,-1,-1,-1,-1,-1,-1,-1,-1,-1,-1,-1,
R61_MIX3,304.56,160,1270,605,84.6,33.84,211.5,3.6,45.5345,3.64,5.1,-1,-1,-1,-1,-1,-1,-1,-1,-1,-1,-1,-1,
R61_MIX4,262.26,160,1270,605,126.9,33.84,126.9,3.6,40.5875,3.66,4.8,-1,-1,-1,-1,-1,-1,-1,-1,-1,-1,-1,-1,
R61_MIX5,262.26,160,1270,605,126.9,33.84,169.2,3.6,43.894,3.95,5,-1,-1,-1,-1,-1,-1,-1,-1,-1,-1,-1,-1,
R61_MIX6,262.26,160,1270,605,126.9,33.84,211.5,3.6,42.262,3.66,4.9,-1,-1,-1,-1,-1,-1,-1,-1,-1,-1,-1,-1,
R61_MIX7,219.96,160,1270,605,169.2,33.84,126.9,3.6,39.7885,3,4.8,-1,-1,-1,-1,-1,-1,-1,-1,-1,-1,-1,-1,
R61_MIX8,219.96,160,1270,605,169.2,33.84,169.2,3.6,40.596,3.19,4.8,-1,-1,-1,-1,-1,-1,-1,-1,-1,-1,-1,-1,
R61_MIX9,219.96,160,1270,605,169.2,33.84,211.5,3.6,37.4255,2.81,4.6,-1,-1,-1,-1,-1,-1,-1,-1,-1,-1,-1,-1,
R62_M-1,450,184.5,1201.5,306,0,0,306,3.78,34,3,4.85,-1,-1,-1,-1,-1,-1,-1,-1,-1,-1,-1,-1,https://www.ripublication.com/ijaer18/ijaerv13n8_18.pdf
R62_M-2,360,184.5,1201.5,612,90,0,0,2.25,32.72,2.5,4.27,-1,-1,-1,-1,-1,-1,-1,-1,-1,-1,-1,-1,
R62_M-5,360,184.5,1201.5,306,90,0,306,7.56,27.71,2.52,4.48,-1,-1,-1,-1,-1,-1,-1,-1,-1,-1,-1,-1,
R63_SF2.5,409.5,155.61,874,874,0,10.5,0,2.016,61.61,-1,-1,-1,3200,2400,1990,-1,-1,-1,-1,-1,-1,-1,-1,https://doi.org/10.1016/j.cemconcomp.2012.01.007
R63_SF10,378,143.64,869,869,0,42,0,2.016,68,-1,-1,-1,1100,740,400,-1,-1,-1,-1,-1,-1,-1,-1,
R63_SL50,210,79.8,866,866,0,0,210,2.016,34,-1,-1,-1,5100,2000,1200,-1,-1,-1,-1,-1,-1,-1,-1,
R63_SL15-SF7.5,325.5,123.69,868,868,0,31.5,63,2.016,57.8,-1,-1,-1,2285,800,800,-1,-1,-1,-1,-1,-1,-1,-1,
R63_SL30-SF7.5,262.5,99.75,865,865,0,31.5,126,2.016,48.11,-1,-1,-1,2100,900,580,-1,-1,-1,-1,-1,-1,-1,-1,
R63_SL50-SF7.5,178.5,67.83,861,861,0,31.5,210,2.016,33.66,-1,-1,-1,1990,988,300,-1,-1,-1,-1,-1,-1,-1,-1,
R64_D20-45,127,127,1115,770,127,0,32,2.288,35.8,3.5,-1,-1,4850,3800,-1,-1,-1,-1,-1,-1,-1,-1,-1,
R64_D50-45,78,128,1115,770,127,0,78,2.264,39.2,3.91,-1,-1,3430,2800,-1,-1,-1,-1,-1,-1,-1,-1,-1,
R64_D30-40,124,122,1115,770,127,0,53,2.432,37.4,3.68,-1,-1,3980,2830,-1,-1,-1,-1,-1,-1,-1,-1,-1,
R65_C80F20,320,152,1097,731.2,80,0,0,0,36.55,5.35,8.35,-1,-1,-1,-1,-1,-1,-1,-1,-1,-1,-1,-1,https://doi.org/10.3390/ma15093016
R65_C80S20,320,152,1097,731.2,0,0,80,0,51.85,4.41,9,45.62,-1,-1,-1,-1,-1,-1,-1,-1,-1,-1,-1,
R65_C65F20S15,260,152,1097,731.2,80,0,60,0,42.5,4.15,8,45.77,-1,-1,-1,-1,-1,-1,-1,-1,-1,-1,-1,
R66_TFS-4,247.76,179,1109,675,65.2,13.04,0,0,30.71,-1,-1,-1,-1,-1,-1,-1,-1,-1,-1,-1,-1,-1,-1,
R67_2,504.84,185.45,797.49,886.58,0,10.1,0,11.32868,59.39,-1,-1,-1,-1,-1,-1,-1,-1,-1,-1,-1,-1,-1,-1,https://doi.org/10.1016/j.conbuildmat.2024.136933
R67_5,473.93,185.45,792.97,881.55,0,37.9,0,11.26026,61.95,-1,-1,-1,-1,-1,-1,-1,-1,-1,-1,-1,-1,-1,-1,
R67_8,489.38,185.45,774.62,861.15,48.938,9.79,0,12.0584,51.66,-1,-1,-1,-1,-1,-1,-1,-1,-1,-1,-1,-1,-1,-1,
R67_11,458.47,185.45,770.09,856.12,45.847,36.68,0,11.9019,54.87,-1,-1,-1,-1,-1,-1,-1,-1,-1,-1,-1,-1,-1,-1,
R67_14,473.93,185.45,751.74,835.72,94.786,9.48,0,12.7203,53.33,-1,-1,-1,-1,-1,-1,-1,-1,-1,-1,-1,-1,-1,-1,
R67_17,443.02,185.45,747.22,830.69,88.604,35.44,0,12.4754,55.16,-1,-1,-1,-1,-1,-1,-1,-1,-1,-1,-1,-1,-1,-1,
R67_20,419.84,185.45,745.3,828.56,125.952,8.4,0,12.1922,54,-1,-1,-1,-1,-1,-1,-1,-1,-1,-1,-1,-1,-1,-1,
R67_23,388.93,185.45,740.78,823.53,116.679,31.11,0,11.8078,56.43,-1,-1,-1,-1,-1,-1,-1,-1,-1,-1,-1,-1,-1,-1,
R67_26,391.51,185.45,727.9,809.22,156.604,7.83,0,12.2308,54.19,-1,-1,-1,-1,-1,-1,-1,-1,-1,-1,-1,-1,-1,-1,
R67_29,360.6,185.45,723.38,804.19,144.24,28.85,0,11.74118,56.77,-1,-1,-1,-1,-1,-1,-1,-1,-1,-1,-1,-1,-1,-1,
R67_32,363.17,185.45,710.51,789.88,181.585,7.26,0,12.14433,55.04,-1,-1,-1,-1,-1,-1,-1,-1,-1,-1,-1,-1,-1,-1,
R67_35,332.27,185.45,705.99,784.85,166.135,26.58,0,11.54967,58.72,-1,-1,-1,-1,-1,-1,-1,-1,-1,-1,-1,-1,-1,-1,
R67_38,334.84,185.45,693.11,770.54,200.904,6.7,0,11.9338,52.88,-1,-1,-1,-1,-1,-1,-1,-1,-1,-1,-1,-1,-1,-1,
R67_41,303.93,185.45,688.59,765.51,182.358,24.31,0,11.2332,56.36,-1,-1,-1,-1,-1,-1,-1,-1,-1,-1,-1,-1,-1,-1,
R67_44,306.51,185.45,675.71,751.2,214.557,6.13,0,11.5983,51.41,-1,-1,-1,-1,-1,-1,-1,-1,-1,-1,-1,-1,-1,-1,
R67_47,275.6,185.45,671.19,746.17,192.92,22.05,0,10.79254,52.89,-1,-1,-1,-1,-1,-1,-1,-1,-1,-1,-1,-1,-1,-1,
R67_50,278.18,185.45,658.32,731.86,222.544,5.56,0,11.1382,50.12,-1,-1,-1,-1,-1,-1,-1,-1,-1,-1,-1,-1,-1,-1,
R67_53,247.27,185.45,653.8,726.83,197.816,19.78,0,10.2271,51.71,-1,-1,-1,-1,-1,-1,-1,-1,-1,-1,-1,-1,-1,-1,
R67_56,221.51,185.45,623.52,693.18,221.51,4.43,0,9.8439,46.1,-1,-1,-1,-1,-1,-1,-1,-1,-1,-1,-1,-1,-1,-1,
R67_59,190.6,185.45,619,688.15,190.6,15.25,0,8.7219,47.74,-1,-1,-1,-1,-1,-1,-1,-1,-1,-1,-1,-1,-1,-1,
R68_100-50-1,248,226.24,806,853,248,0,0,5,21.2755,-1,-1,27.89,-1,-1,-1,-1,340,475,495,277.64,-1,-1,-1,
R68_50-75-2,124,210.12,812,853,186,0,186,5,29.546,-1,-1,31.27,-1,-1,-1,-1,298,427,450,216.28,-1,-1,-1,
R68_100-75-3,124,226.24,806,853,159,53,159,5,31.212,-1,-1,31.8,-1,-1,-1,-1,470,600,655,258.43,-1,-1,-1,
R69_Q50F0K0G30P0,354,155,1048,708,0,133,0,0,53.55,-1,-1,-1,-1,-1,-1,-1,-1,-1,-1,-1,-1,-1,-1,
R69_Q50F10K10G10P0,311,155,1056,704,44,44,44,0,51.85,-1,-1,-1,-1,-1,-1,-1,-1,-1,-1,-1,-1,-1,-1,
R70_4,395.2,158,1151,647,98.8,0,0,4.94,53.72,5.71,-1,-1,-1,-1,-1,-1,-1,-1,-1,-1,-1,-1,-1,
R70_7,464.4,158,1151,647,0,29.6,0,4.94,54.99,5.76,-1,-1,-1,-1,-1,-1,-1,-1,-1,-1,-1,-1,-1,
R70_10,405.1,158,1151,647,74.1,14.8,0,4.94,54.99,5.62,-1,-1,-1,-1,-1,-1,-1,-1,-1,-1,-1,-1,-1,
R70_13,360.6,158,1151,647,74.1,59.3,0,4.94,64.43,6.36,-1,-1,-1,-1,-1,-1,-1,-1,-1,-1,-1,-1,-1,
R71_SCC3,178.125,190,732.7,950.1,47.5,11.875,237.5,1.1875,35.3,-1,-1,-1,-1,-1,-1,-1,-1,-1,-1,-1,-1,-1,-1,
R71_SCC6,154.375,190,730.4,947.1,71.25,11.875,237.5,1.1875,34.8,-1,-1,-1,-1,-1,-1,-1,-1,-1,-1,-1,-1,-1,-1,
R71_SCC9,130.625,190,725.2,940.4,95,11.875,237.5,1.1875,33.8,-1,-1,-1,-1,-1,-1,-1,-1,-1,-1,-1,-1,-1,-1,
R71_SCC12,166.25,190,730.1,946.8,47.5,23.75,237.5,1.425,35,-1,-1,-1,-1,-1,-1,-1,-1,-1,-1,-1,-1,-1,-1,
R71_SCC15,142.5,190,726.3,941.9,71.25,23.75,237.5,1.425,32.7,-1,-1,-1,-1,-1,-1,-1,-1,-1,-1,-1,-1,-1,-1,
R71_SCC18,118.75,190,722.7,937.1,95,23.75,237.5,1.425,31.1,-1,-1,-1,-1,-1,-1,-1,-1,-1,-1,-1,-1,-1,-1,
R71_SCC21,154.375,190,728.1,944.23,47.5,35.625,237.5,1.6625,34.5,-1,-1,-1,-1,-1,-1,-1,-1,-1,-1,-1,-1,-1,-1,
R71_SCC24,130.625,190,724.3,939.2,71.25,35.625,237.5,1.6625,32.9,-1,-1,-1,-1,-1,-1,-1,-1,-1,-1,-1,-1,-1,-1,
R71_SCC27,106.875,190,720.5,934.3,95,35.625,237.5,1.6625,33.1,-1,-1,-1,-1,-1,-1,-1,-1,-1,-1,-1,-1,-1,-1,
R71_SCC-47.5/52.5,225.625,190,752.5,937.1,47.5,11.875,190,1.1875,30.89,3.18,6.89,-1,255,-1,-1,-1,-1,-1,-1,-1,-1,-1,-1,
[...]
R109_3,466.4,186.56,1235,523,0,0,116.6,4.5,62.9,-1,-1,-1,-1,-1,-1,-1,-1,-1,-1,-1,-1,-1,-1,
R109_6,466.4,186.56,1235,523,58.3,0,58.3,4.25,65.025,-1,-1,-1,-1,-1,-1,-1,-1,-1,-1,-1,-1,-1,-1,
R109_9,466.4,205.216,1235,523,116.6,0,58.3,4.05,57.8,-1,-1,-1,-1,-1,-1,-1,-1,-1,-1,-1,-1,-1,-1,
R109_12,524.7,191.232,1235,523,0,14.6,58.3,4.45,62.475,-1,-1,-1,-1,-1,-1,-1,-1,-1,-1,-1,-1,-1,-1,
R109_15,524.7,191.232,1235,523,58.3,14.6,0,4.25,62.05,-1,-1,-1,-1,-1,-1,-1,-1,-1,-1,-1,-1,-1,-1,
R109_18,466.4,191.232,1235,523,116.6,14.6,0,4.19,61.625,-1,-1,-1,-1,-1,-1,-1,-1,-1,-1,-1,-1,-1,-1,
R109_21,583,195.904,1235,523,0,29.2,0,4.4,65.45,-1,-1,-1,-1,-1,-1,-1,-1,-1,-1,-1,-1,-1,-1,
R109_24,408.1,195.904,1235,523,0,29.2,174.9,4.65,62.9,-1,-1,-1,-1,-1,-1,-1,-1,-1,-1,-1,-1,-1,-1,
R109_27,408.1,195.904,1235,523,58.3,29.2,116.6,4.6,57.8,-1,-1,-1,-1,-1,-1,-1,-1,-1,-1,-1,-1,-1,-1,
R109_30,530.7,235.136,1235,523,174.9,29.2,0,4.4,61.455,-1,-1,-1,-1,-1,-1,-1,-1,-1,-1,-1,-1,-1,-1,
R109_33,466.4,200.544,1235,523,0,43.7,116.6,5.6,67.15,-1,-1,-1,-1,-1,-1,-1,-1,-1,-1,-1,-1,-1,-1,
R109_36,466.4,200.544,1235,523,58.3,43.7,58.3,4.97,70.55,-1,-1,-1,-1,-1,-1,-1,-1,-1,-1,-1,-1,-1,-1,
R109_39,466.4,219.2,1235,523,116.6,43.7,58.3,5.26,58.99,-1,-1,-1,-1,-1,-1,-1,-1,-1,-1,-1,-1,-1,-1,
R109_42,524.7,205.216,1235,523,0,58.3,58.3,5.74,64.6,-1,-1,-1,-1,-1,-1,-1,-1,-1,-1,-1,-1,-1,-1,
R109_45,524.7,205.216,1235,523,58.3,58.3,0,5.43,65.45,-1,-1,-1,-1,-1,-1,-1,-1,-1,-1,-1,-1,-1,-1,
R109_48,466.4,205.216,1235,523,116.6,58.3,0,5.4,66.3,-1,-1,-1,-1,-1,-1,-1,-1,-1,-1,-1,-1,-1,-1,
R109_51,583,209.888,1235,523,0,72.9,0,5.74,63.58,-1,-1,-1,-1,-1,-1,-1,-1,-1,-1,-1,-1,-1,-1,
R109_54,408.1,209.888,1235,523,0,72.9,174.9,5.68,59.5,-1,-1,-1,-1,-1,-1,-1,-1,-1,-1,-1,-1,-1,-1,
R109_57,408.1,209.888,1235,523,58.3,72.9,116.6,5.3,56.95,-1,-1,-1,-1,-1,-1,-1,-1,-1,-1,-1,-1,-1,-1,
R109_60,530.7,249.12,1235,523,174.9,72.9,0,5.21,59.5,-1,-1,-1,-1,-1,-1,-1,-1,-1,-1,-1,-1,-1,-1,
R111_40FA,330,176,899,700,220,0,0,7.43,51.765,-1,-1,-1,-1,-1,-1,-1,-1,-1,-1,-1,-1,-1,-1,
R111_40GGBFS,330,176,928,722,0,0,220,10,68.085,-1,-1,-1,-1,-1,-1,-1,-1,-1,-1,-1,-1,-1,-1,
R111_10SF,495,176,925,720,0,55,0,10.67,72.76,-1,-1,-1,-1,-1,-1,-1,-1,-1,-1,-1,-1,-1,-1,
R111_30FA10SF,330,176,898,699,165,55,0,9.11,57.12,-1,-1,-1,-1,-1,-1,-1,-1,-1,-1,-1,-1,-1,-1,
R111_30GGBFS10SF,330,176,920,716,0,55,165,10.78,74.375,-1,-1,-1,-1,-1,-1,-1,-1,-1,-1,-1,-1,-1,-1,
R111_20FA20GGBFS,330,176,913,711,110,0,110,7.5,52.87,-1,-1,-1,-1,-1,-1,-1,-1,-1,-1,-1,-1,-1,-1,
R111_15FA15GGBFS10SF,330,176,909,707,82.5,55,82.5,6.48,61.795,-1,-1,-1,-1,-1,-1,-1,-1,-1,-1,-1,-1,-1,-1,
R112_SB25VA25-A,125,172,1100,880,62.5,0,62.5,5,36,-1,-1,-1,-1,-1,-1,-1,-1,-1,-1,-1,-1,-1,-1,
R112_SA25VA25-B,175,172,1100,880,87.5,0,87.5,5,52,-1,-1,-1,-1,-1,-1,-1,-1,-1,-1,-1,-1,-1,-1,
R112_SB40VA25-B,122.5,172,1100,880,87.5,0,140,5,54,-1,-1,-1,-1,-1,-1,-1,-1,-1,-1,-1,-1,-1,-1,
R113_M4,208,170,1035,697,0,0,207,2.9,46.4,-1,-1,32,-1,-1,-1,-1,-1,-1,-1,-1,-1,-1,-1,
R114_M6,270,136.8,843,1257,0,0,90,0,79.8,-1,-1,-1,-1,-1,-1,-1,-1,-1,-1,-1,-1,-1,-1,
R114_M9,360,171,808,1204,0,0,90,0,83,-1,-1,-1,-1,-1,-1,-1,-1,-1,-1,-1,-1,-1,-1,
R114_M12,180,139.5,768,1152,0,0,270,0,65,-1,-1,-1,-1,-1,-1,-1,-1,-1,-1,-1,-1,-1,-1,
R115_C175GGBS75.0,175,218,1109,731,0,0,75,0,19.975,-1,-1,-1,-1,-1,-1,-1,-1,-1,-1,-1,-1,-1,-1,
R115_C175GGBS225.0,175,238,991,654,0,0,225,0,23.12,-1,-1,-1,-1,-1,-1,-1,-1,-1,-1,-1,-1,-1,-1,
R115_C210GGBS90.0,210,224,1072,707,0,0,90,0,25.5,-1,-1,-1,-1,-1,-1,-1,-1,-1,-1,-1,-1,-1,-1,
R115_C210GGBS270.0,210,251,927,611,0,0,270,0,29.325,-1,-1,-1,-1,-1,-1,-1,-1,-1,-1,-1,-1,-1,-1,
R115_C245GGBS105.0,245,230,1036,683,0,0,105,0,30.685,-1,-1,-1,-1,-1,-1,-1,-1,-1,-1,-1,-1,-1,-1,
R115_C245GGBS315.0,245,263,864,569,0,0,315,0,35.275,-1,-1,-1,-1,-1,-1,-1,-1,-1,-1,-1,-1,-1,-1,
R115_C280GGBS120,280,236,999,659,0,0,120,0,35.53,-1,-1,-1,-1,-1,-1,-1,-1,-1,-1,-1,-1,-1,-1,
R115_C280GGBS360,280,278,796,525,0,0,360,0,39.95,-1,-1,-1,-1,-1,-1,-1,-1,-1,-1,-1,-1,-1,-1,
R116_GGFAC,300,140,1140,647,125,0,75,2,68.51,-1,-1,-1,-1,-1,-1,-1,-1,-1,-1,-1,-1,-1,-1,
R117_40BFS,216,183.6,1108,673.5,0,0,144,0,29.1635,-1,-1,-1,-1,-1,-1,-1,-1,-1,-1,-1,-1,-1,-1,
R118_50GGBS,229,160,1285,500,0,0,228,2.75,54,-1,7,40,-1,-1,-1,-1,-1,-1,-1,-1,-1,-1,-1,
R119_4,175.25,197.1,1139.1,657.19,0,46.14,238.99,0,26.1,3.12,5.1,-1,-1,-1,-1,-1,-1,-1,-1,-1,-1,-1,-1,
R120_MS15,459,156.06,817.56,828.36,0,81,0,4.32,44.71,-1,-1,-1,-1,-1,-1,-1,-1,-1,-1,-1,-1,-1,-1,
R120_MA15,459,156.06,817.56,828.36,0,0,81,4.32,51,-1,-1,-1,-1,-1,-1,-1,-1,-1,-1,-1,-1,-1,-1,
R121_4,400,150,1147,703,50,0,50,7.5,68.595,-1,-1,-1,-1,-1,-1,-1,-1,-1,-1,-1,-1,-1,-1,
R122_FA15S2,431.6,288.96,678,984,78,10.4,0,4.16,29.75,3.5,-1,-1,-1,-1,-1,-1,-1,-1,-1,-1,-1,-1,-1,
R122_FA15G10,390,288.96,678,984,78,0,52,4.16,32.47,3.18,-1,-1,-1,-1,-1,-1,-1,-1,-1,-1,-1,-1,-1,
R123_01,312,195,1200,710,0,0,71,0,29.75,3.05,3.79,-1,-1,-1,-1,-1,-1,-1,-1,-1,-1,-1,-1,https://doi.org/10.1016/j.conbuildmat.2017.10.118
R123_11,312,203,1174,710,0,0,71,0,28.9,2.86,3.7,-1,-1,-1,-1,-1,-1,-1,-1,-1,-1,-1,-1,
R123_21,312,207,1148,710,0,0,71,0,27.625,2.81,3.65,-1,-1,-1,-1,-1,-1,-1,-1,-1,-1,-1,-1,
R123_31,312,215,1096,710,0,0,71,0,23.545,2.66,3.55,-1,-1,-1,-1,-1,-1,-1,-1,-1,-1,-1,-1,
R124_FS50S35,273,168,1150,692,0,0,147,2.9,67.91,-1,8.35,-1,-1,-1,-1,-1,215,260,275,-1,-1,-1,-1,https://doi.org/10.1016/j.conbuildmat.2022.128512
R125_M-2,270,203,1040,482,0,0,180,4.95,26.5,2.76,-1,9.5,-1,-1,-1,-1,-1,-1,-1,-1,-1,-1,-1,
R126_M2B,435,154,1098,772,0,65.2,0,4.31,44.625,-1,-1,-1,-1,-1,-1,-1,-1,-1,-1,-1,-1,-1,-1,
R126_M3B,435,154,1098,772,0,0,87,4.31,41.565,-1,-1,-1,-1,-1,-1,-1,-1,-1,-1,-1,-1,-1,-1,
R128_GS20,360,157.5,1105.5,737,0,0,90,2.6,48.7,-1,-1,-1,-1,-1,-1,-1,-1,-1,-1,-1,-1,-1,-1,https://doi.org/10.1007/s11431-012-5027-y
R128_SF5,427.5,157.5,1105.5,737,0,22.5,0,3.2,54,-1,-1,-1,-1,-1,-1,-1,-1,-1,-1,-1,-1,-1,-1,
R129_10SF,405,112.5,1427.87,444.19,0,45,0,15.75,96.29,-1,-1,41.55,-1,-1,-1,-1,-1,-1,-1,-1,-1,-1,-1,
R129_25SF,337.5,112.5,1413.05,439.59,0,112.5,0,13.5,84.88,-1,-1,35.15,-1,-1,-1,-1,-1,-1,-1,-1,-1,-1,-1,
R130_SF15,382.5,126,1125,675,0,67.5,0,14,99.875,-1,-1,48.26,-1,-1,-1,-1,-1,-1,-1,-1,-1,-1,-1,
R130_FA30,315,126,1125,675,135,0,0,14,69.785,-1,-1,42.36,-1,-1,-1,-1,-1,-1,-1,-1,-1,-1,-1,
R130_GGBS60,180,126,1125,675,0,0,270,14,73.695,-1,-1,43.09,-1,-1,-1,-1,-1,-1,-1,-1,-1,-1,-1,
R131_1M4,135,135,895,895,135,45,135,1.571,66.69,-1,-1,-1,-1,-1,-1,-1,-1,-1,-1,-1,-1,-1,-1,
R131_1M7,180,135,895,895,270,0,0,1.143,46.34,-1,-1,-1,-1,-1,-1,-1,-1,-1,-1,-1,-1,-1,-1,
R131_2M3,180,135,875,875,225,45,0,1.286,56.56,-1,-1,-1,-1,-1,-1,-1,-1,-1,-1,-1,-1,-1,-1,
R131_2M6,135,135,875,875,0,45,270,1.857,66.96,-1,-1,-1,-1,-1,-1,-1,-1,-1,-1,-1,-1,-1,-1,
R132_2,427.4,214,1212,520,23.8,0,23.8,0,40.375,-1,-1,-1,-1,-1,-1,-1,-1,-1,-1,-1,-1,-1,-1,https://doi.org/10.1016/j.conbuildmat.2023.133669
R132_5,427.4,214,1212,520,23.8,23.8,0,0,36.856,-1,-1,-1,-1,-1,-1,-1,-1,-1,-1,-1,-1,-1,-1,
R132_8,332.4,214,1212,520,47.5,23.8,71.3,0,41.3865,-1,-1,-1,-1,-1,-1,-1,-1,-1,-1,-1,-1,-1,-1,
R132_11,380,214,1212,520,0,47.5,47.5,0,43.6135,-1,-1,-1,-1,-1,-1,-1,-1,-1,-1,-1,-1,-1,-1,
R132_14,332.4,214,1212,520,47.5,71.3,23.8,0,36.312,-1,-1,-1,-1,-1,-1,-1,-1,-1,-1,-1,-1,-1,-1,
R133_CM0EAF0,300,160,1137,741,0,0,100,0,41.65,4.16,5.02,34.5,2465,-1,-1,-1,-1,-1,-1,-1,-1,-1,-1,https://doi.org/10.1016/j.conbuildmat.2023.134673
R134_10FA,495,137.5,856.9,856.9,55,0,0,23.4,61.03,-1,-1,-1,-1,-1,-1,-1,-1,-1,-1,-1,-1,-1,-1,https://doi.org/10.1016/j.jksues.2020.12.005
R134_40FA,330,137.5,831.8,831.8,220,0,0,20.9,46.75,-1,-1,-1,-1,-1,-1,-1,-1,-1,-1,-1,-1,-1,-1,
R134_10S,495,137.5,840.3,840.3,0,0,55,23.1,68,-1,-1,-1,-1,-1,-1,-1,-1,-1,-1,-1,-1,-1,-1,
R134_40S,330,137.5,765.3,765.3,0,0,220,20.1,71.91,-1,-1,-1,-1,-1,-1,-1,-1,-1,-1,-1,-1,-1,-1,
R134_5FA5S,495,137.5,849,849,27.5,0,27.5,22.8,68.51,-1,-1,-1,-1,-1,-1,-1,-1,-1,-1,-1,-1,-1,-1,
R134_20FA20S,330,137.5,799.6,799.6,110,0,110,19.5,68,-1,-1,-1,-1,-1,-1,-1,-1,-1,-1,-1,-1,-1,-1,
R135_CSF8,181.44,197,1014.85,797.38,0,7.8,0,0,27.455,3.43,-1,-1,-1,-1,-1,-1,-1,-1,-1,-1,-1,-1,-1,https://doi.org/10.1016/j.matpr.2023.05.364
R135_CSG25,148.32,197,1015.77,798.1,0,0,45.6,0,25.415,3.42,-1,-1,-1,-1,-1,-1,-1,-1,-1,-1,-1,-1,-1,
R136_MPEG_S0,243,116.64,1009,1127,0,0,243,14.55,61.2,-1,9.8,-1,-1,-1,-1,113,190.65,332.13,-1,-1,-1,-1,-1,https://doi.org/10.1016/j.jobe.2020.101412
R136_TPEG_S12,243,130.95,981,1095,0,58,184,14.55,70.125,-1,12.5,-1,-1,-1,-1,-1,-1,-1,-1,-1,-1,-1,-1,
R136_MPEGandTPEG_S12,243,135.8,974,1087,0,58,184,14.55,61.2,-1,10.2,-1,-1,-1,-1,-1,-1,-1,-1,-1,-1,-1,-1,
,,,,,,,,,,,,,,,,,,,,,,,,
,,,,,,,,,,,,,,,,,,,,,,,,
,,,,,,,,,,,,,,,,,,,,,,,,
,,,,,,,,,,,,,,,,,,,,,,,,
,,,,,,,,,,,,,,,,,,,,,,,,
,,,,,,,,,,,,,,,,,,,,,,,,